# Result dir: ../vina-ensemble/wt-transition-probe-3/. Performed at 2012-06-27 14:00:11.753241
# Binding energies of docked conformations, attached to ligand center of mass
# Box Cluster      Center_of_mass(x,y,z)       BindingEnergy    Center_of_geometry(x,y,z)
  1   1        -2.897       91.514       118.772       -4.600       -3.092       91.713        119.148
  1   2        -4.063       91.176       119.226       -4.900       -3.691       91.077        119.043
  1   3        -2.932       92.526       120.428       -4.300       -3.257       92.764        120.591
  1   4        -0.579       93.104       119.313       -4.300       -0.976       92.960        119.137
  1   5        -5.968       93.702       121.306       -4.000       -5.933       93.414        121.617
  1   6        -2.433       93.709       120.215       -4.200       -2.707       93.414        120.099
  1   7        -5.328       93.951       119.459       -4.600       -5.647       93.734        119.332
  1   8        -3.400       92.154       119.362       -4.700       -3.003       92.127        119.157
  1   9        -4.105       91.460       119.424       -4.500       -4.365       91.714        119.712
  1   10        -0.331       91.235       118.378       -4.400       -0.523       91.547        118.560
  1   11        -1.582       92.439       118.809       -4.700       -1.439       92.577        119.173
  1   12        -1.894       93.043       118.941       -4.600       -1.949       93.383        119.199
  1   13        -3.970       91.575       118.909       -5.100       -3.627       91.491        118.672
  1   14        -1.839       92.570       118.189       -5.000       -2.031       92.986        118.128
  1   15        -4.651       93.005       119.133       -5.200       -4.449       93.288        119.466
  1   16        -5.307       92.711       119.408       -5.000       -5.115       93.067        119.501
  1   17        -1.253       91.340       118.962       -4.900       -1.673       91.436        119.008
  1   18        -4.718       92.263       119.612       -4.600       -4.325       92.141        119.428
  1   19        -2.919       93.248       119.190       -4.400       -3.342       93.319        119.154
  1   20        -4.486       91.743       119.566       -4.700       -4.072       91.696        119.357
  1   21        -4.741       91.812       119.615       -4.900       -4.336       91.723        119.443
  1   22        -5.753       92.845       118.724       -5.100       -6.141       92.802        118.555
  1   23         0.221       91.847       118.954       -4.500        0.590       91.529        119.075
  1   24        -2.990       93.478       118.801       -4.500       -2.613       93.730        118.955
  1   25        -2.230       92.258       119.199       -4.700       -2.448       92.484        119.538
  1   26        -0.006       90.700       117.786       -4.600       -0.333       90.948        117.850
  1   27        -3.813       92.790       119.261       -4.700       -3.466       92.988        119.167
  1   28        -2.801       91.840       118.226       -4.500       -2.631       91.483        118.075
  1   29        -6.465       93.087       118.523       -5.300       -6.812       93.331        118.319
  1   30        -5.358       92.896       118.588       -4.400       -5.730       92.909        118.409
  1   31        -5.864       93.708       118.930       -4.600       -6.170       93.982        118.880
  1   32        -5.160       92.520       118.801       -4.500       -5.513       92.487        118.594
  1   33        -3.571       91.835       118.487       -4.600       -3.207       91.604        118.416
  1   34        -5.694       92.741       118.272       -5.000       -6.017       93.032        118.250
  1   35        -4.513       92.253       118.329       -5.000       -4.492       91.931        118.068
  1   36        -4.456       92.115       118.462       -4.900       -4.436       91.824        118.178
  1   37        -1.985       93.118       118.878       -4.800       -1.952       93.514        119.051
  1   38        -5.599       92.083       118.906       -4.800       -5.471       91.815        118.614
  1   39        -4.966       92.514       119.113       -4.600       -4.681       92.793        119.239
  1   40        -4.877       92.517       118.787       -4.800       -5.256       92.344        118.701
  1   41        -4.024       91.444       118.690       -4.600       -4.101       91.690        119.066
  1   42         0.398       90.772       117.824       -4.600        0.224       91.091        118.019
  1   43        -5.787       93.277       118.566       -4.700       -5.502       93.574        118.668
  1   44        -4.712       92.957       117.839       -5.000       -4.378       92.700        117.740
  1   45        -4.712       93.071       118.453       -4.800       -4.611       92.760        118.195
  1   46        -2.843       91.053       118.343       -5.000       -2.817       91.515        118.434
  1   47        -3.163       92.162       117.970       -4.600       -2.971       91.823        117.797
  1   48        -2.827       92.509       118.017       -4.400       -2.817       92.117        117.769
  1   49        -2.953       92.344       118.092       -4.500       -2.959       91.946        117.833
  1   50        -4.213       92.987       118.167       -4.600       -3.823       92.833        118.226
  1   51        -5.421       93.071       118.315       -4.700       -5.721       93.366        118.333
  1   52         0.027       91.091       118.469       -4.900       -0.154       91.444        118.611
  1   53        -5.052       92.921       118.600       -4.700       -5.038       92.614        118.330
  1   54        -5.385       92.473       118.259       -4.800       -5.465       92.076        118.007
  1   55        -5.094       93.093       118.841       -4.900       -4.947       92.832        118.552
  1   56        -5.306       92.590       118.998       -4.500       -5.225       92.324        118.700
  1   57        -5.576       92.935       119.071       -4.900       -5.374       92.716        118.781
  1   58        -5.304       92.373       118.484       -5.000       -5.438       92.001        118.218
  1   59        -4.929       93.077       117.907       -4.300       -5.087       92.682        117.764
  1   60        -3.804       92.409       117.971       -4.600       -4.221       92.343        117.934
  1   61        -4.359       93.068       118.283       -4.500       -3.949       93.278        118.276
  1   62        -4.889       92.826       117.930       -4.700       -5.282       92.690        117.834
  1   63        -4.949       92.346       118.476       -4.700       -4.923       92.030        118.219
  1   64        -4.797       93.362       118.340       -4.800       -5.187       93.237        118.236
  1   65        -4.776       92.404       118.890       -4.600       -4.728       92.126        118.566
  1   66         0.090       90.465       117.970       -4.300       -0.073       90.840        118.019
  1   67        -5.310       93.292       118.385       -4.500       -5.680       93.226        118.212
  1   68        -3.112       91.331       117.951       -5.000       -3.065       91.750        118.126
  1   69        -3.234       91.555       117.824       -4.800       -3.203       91.985        117.982
  1   70        -5.392       93.861       118.622       -4.800       -5.707       94.131        118.624
  1   71        -5.426       92.844       118.513       -4.800       -5.794       92.885        118.346
  1   72        -5.524       93.568       118.608       -5.200       -5.871       93.877        118.619
  1   73        -5.093       93.475       118.460       -4.500       -5.477       93.439        118.289
  1   74        -5.682       93.195       118.529       -4.700       -5.370       93.494        118.620
  1   75        -1.184       92.103       118.326       -4.700       -1.397       92.515        118.175
  1   76        -5.025       93.540       118.624       -4.600       -5.445       93.472        118.424
  1   77        -5.137       92.825       119.274       -4.500       -4.748       92.698        119.086
  1   78        -5.634       93.736       118.517       -4.400       -5.971       93.973        118.533
  1   79        -5.506       94.156       118.893       -4.500       -5.351       94.558        118.914
  1   80        -1.035       92.240       118.396       -4.300       -1.265       92.636        118.220
  1   81        -5.150       93.503       118.785       -4.800       -5.507       93.487        118.570
  1   82        -1.288       91.594       118.021       -4.700       -1.543       91.918        117.958
  1   83        -5.251       92.608       118.944       -4.700       -5.186       92.330        118.632
  1   84        -4.136       92.149       118.565       -5.100       -4.350       92.521        118.759
  1   85        -4.443       94.063       118.928       -4.600       -4.177       94.366        119.040
  1   86        -4.307       93.125       118.334       -4.700       -4.597       93.434        118.374
  1   87        -5.145       93.249       118.541       -4.800       -4.730       93.307        118.438
  1   88        -4.640       94.107       118.979       -4.300       -4.386       94.428        119.036
  1   89        -2.195       90.423       118.139       -5.000       -2.029       90.813        118.116
  1   90        -2.519       92.077       117.493       -4.700       -2.338       91.720        117.347
  1   91        -5.199       93.150       118.743       -4.600       -4.780       93.108        118.797
  1   92        -4.032       93.502       119.016       -4.800       -4.417       93.533        118.897
  1   93        -5.160       93.566       118.913       -4.800       -5.483       93.863        118.972
  1   94        -4.491       92.833       118.798       -4.500       -4.469       92.590        118.474
  1   95        -6.356       93.532       119.235       -4.600       -6.710       93.380        118.935
  1   96        -4.965       94.306       119.117       -4.600       -4.877       94.672        119.378
  1   97        -5.776       93.856       118.705       -5.000       -5.472       94.131        118.800
  1   98        -2.286       90.271       117.722       -5.100       -2.209       90.681        117.856
  1   99        -2.583       90.254       118.027       -4.800       -2.391       90.644        118.025
  1   100        -5.476       93.900       119.197       -4.600       -5.201       94.230        119.200
  1   101        -5.316       93.793       118.706       -4.600       -5.655       94.033        118.734
  1   102        -2.863       93.203       118.206       -4.600       -2.527       92.918        118.062
  1   103        -1.281       91.921       118.416       -4.500       -1.470       92.333        118.238
  1   104        -5.686       93.206       118.798       -4.700       -6.040       93.152        118.583
  1   105        -3.412       93.158       118.557       -4.400       -3.067       92.914        118.396
  1   106        -6.042       93.637       118.687       -4.600       -6.397       93.576        118.488
  1   107        -4.715       93.563       118.414       -4.700       -5.099       93.573        118.247
  1   108        -5.131       92.254       118.009       -5.100       -4.734       92.133        117.874
  1   109        -5.928       93.597       118.936       -4.800       -6.205       93.956        118.786
  1   110        -4.911       91.610       119.045       -4.700       -4.868       91.357        118.715
  1   111        -0.942       91.708       118.638       -4.500       -1.332       91.843        118.355
  1   112        -5.572       92.985       118.970       -4.800       -5.939       92.962        118.784
  1   113        -4.856       90.524       118.684       -5.300       -5.291       90.797        118.586
  1   114        -5.896       93.875       118.662       -5.000       -5.610       94.160        118.760
  1   115        -2.962       93.043       118.556       -4.600       -2.916       93.438        118.639
  1   116        -2.244       90.606       118.283       -4.700       -2.071       91.035        118.211
  1   117        -1.211       91.946       117.878       -4.800       -1.432       92.369        117.771
  1   118        -4.980       93.656       118.591       -4.700       -4.739       93.933        118.875
  1   119        -5.292       92.877       118.535       -4.800       -5.666       92.863        118.367
  1   120        -5.324       93.743       119.024       -4.500       -5.688       93.708        118.826
  1   121        -5.729       93.927       118.734       -4.600       -6.129       93.814        118.522
  1   122        -2.746       91.114       117.988       -4.800       -2.684       91.525        118.175
  1   123        -5.545       93.142       118.332       -5.000       -5.122       93.175        118.314
  1   124        -5.649       93.715       118.836       -4.500       -5.975       93.534        118.663
  1   125        -4.689       92.946       119.098       -4.700       -4.449       93.294        119.127
  1   126        -4.663       92.943       118.587       -4.600       -5.056       92.964        118.410
  1   127        -5.968       93.622       118.839       -4.900       -5.659       93.879        118.955


  2   1        -3.168       91.308       118.414       -5.100       -3.368       91.527        118.767
  2   2        -3.516       91.207       118.906       -5.100       -3.821       91.362        119.212
  2   3        -2.662       93.115       120.148       -4.200       -2.442       93.350        120.483
  2   4        -2.981       92.767       118.634       -4.700       -3.268       92.925        118.958
  2   5         3.377       90.634       117.763       -4.400        3.347       90.991        118.015
  2   6         3.254       90.040       117.637       -4.200        3.207       90.429        117.829
  2   7        -5.064       92.728       118.693       -5.200       -4.605       92.658        118.596
  2   8        -4.502       92.239       118.503       -5.500       -4.092       92.217        118.404
  2   9        -4.032       91.149       118.915       -4.900       -4.283       91.394        119.235
  2   10        -5.416       92.801       118.249       -5.300       -5.669       93.145        118.327
  2   11        -5.013       92.794       118.643       -5.300       -4.569       92.781        118.504
  2   12        -1.620       93.067       118.718       -4.700       -2.008       92.907        118.755
  2   13        -4.808       91.322       118.473       -5.600       -4.472       91.266        118.246
  2   14        -1.855       92.727       118.219       -4.800       -2.048       93.147        118.151
  2   15        -4.672       92.909       118.996       -5.300       -4.458       93.181        119.327
  2   16        -5.270       92.702       119.417       -5.100       -5.075       93.052        119.518
  2   17        -4.435       91.037       119.211       -5.300       -4.421       90.812        118.833
  2   18        -4.386       92.010       118.388       -5.300       -4.700       92.254        118.651
  2   19        -2.829       93.237       119.158       -4.400       -3.244       93.325        119.142
  2   20        -5.156       91.826       118.228       -5.100       -5.559       91.847        118.046
  2   21        -4.807       91.943       119.077       -4.700       -4.412       91.835        118.962
  2   22        -5.611       92.275       118.463       -5.500       -6.045       92.283        118.271
  2   23         1.868       91.076       117.653       -4.300        1.568       90.750        117.470
  2   24        -3.532       91.884       118.219       -5.000       -3.822       92.163        118.431
  2   25        -5.396       93.585       118.509       -5.500       -5.140       93.685        118.849
  2   26        -3.010       91.341       117.792       -5.100       -3.134       91.699        117.994
  2   27        -3.191       90.475       118.015       -5.000       -3.253       90.813        118.234
  2   28        -4.168       91.829       117.949       -5.200       -4.097       91.517        117.592
  2   29        -6.430       92.786       117.856       -6.000       -6.091       92.564        117.694
  2   30        -5.320       92.702       118.275       -5.000       -4.999       92.923        118.432
  2   31        -5.484       92.629       118.516       -5.400       -5.148       92.835        118.646
  2   32        -5.913       92.435       118.347       -5.100       -6.255       92.709        118.397
  2   33        -5.902       92.593       118.379       -5.200       -5.483       92.724        118.341
  2   34        -5.689       92.234       118.113       -5.500       -6.000       92.540        118.115
  2   35        -4.685       91.798       118.256       -5.400       -4.645       91.553        117.880
  2   36        -4.411       91.925       118.157       -5.400       -4.352       91.670        117.846
  2   37        -5.627       92.715       118.778       -5.300       -5.366       93.034        118.851
  2   38        -5.164       92.089       118.310       -5.500       -4.744       92.028        118.181
  2   39        -3.442       90.918       118.386       -5.000       -3.663       91.249        118.578
  2   40        -5.797       92.202       118.700       -5.300       -5.974       92.177        118.313
  2   41        -4.440       91.462       118.260       -5.300       -4.350       91.261        117.882
  2   42        -5.792       93.224       119.126       -4.900       -5.593       92.945        118.851
  2   43        -5.944       92.666       118.185       -5.200       -5.632       92.897        118.325
  2   44        -5.034       92.875       117.502       -5.300       -4.662       92.678        117.443
  2   45        -4.497       93.292       117.912       -5.300       -4.451       92.924        117.617
  2   46        -3.906       92.367       118.074       -5.100       -4.176       92.736        118.214
  2   47        -4.194       91.503       117.569       -5.100       -4.062       91.896        117.797
  2   48        -5.691       93.480       118.461       -4.600       -5.237       93.541        118.323
  2   49        -4.990       92.066       117.870       -4.800       -4.571       91.860        117.836
  2   50        -4.898       91.909       117.213       -5.000       -5.357       91.787        117.149
  2   51        -4.513       92.365       117.473       -5.300       -4.419       92.021        117.176
  2   52        -4.709       92.900       118.023       -5.300       -4.958       93.236        118.136
  2   53        -5.014       93.392       118.430       -5.000       -4.824       93.573        118.760
  2   54        -6.012       93.152       117.972       -4.900       -6.300       93.436        117.868
  2   55        -4.640       93.071       118.019       -5.400       -4.921       93.369        118.176
  2   56        -6.227       93.289       118.332       -5.200       -5.759       93.245        118.383
  2   57        -4.554       92.666       117.996       -5.700       -4.800       92.960        118.205
  2   58        -5.673       92.722       118.223       -5.100       -5.952       93.028        118.140
  2   59        -6.643       93.096       117.774       -5.400       -6.440       93.542        117.660
  2   60        -4.751       91.921       117.701       -5.100       -4.305       91.728        117.663
  2   61        -5.853       93.087       117.826       -5.400       -5.390       93.118        117.763
  2   62        -6.204       93.474       117.912       -5.400       -5.747       93.519        117.882
  2   63        -6.378       93.284       118.048       -5.600       -5.987       93.358        118.163
  2   64        -6.092       93.527       117.984       -5.300       -5.639       93.534        118.008
  2   65        -4.214       91.607       118.621       -5.000       -4.155       91.415        118.232
  2   66         0.292       90.465       117.869       -4.500        0.126       90.832        117.943
  2   67        -5.324       93.746       117.546       -5.000       -5.705       93.926        117.556
  2   68        -4.849       93.007       117.982       -5.400       -5.098       93.356        118.038
  2   69        -6.429       93.692       118.188       -5.100       -5.967       93.707        118.135
  2   70        -5.228       92.746       118.153       -5.500       -5.569       93.062        118.185
  2   71        -5.833       92.826       118.331       -5.400       -5.408       92.850        118.324
  2   72        -5.233       92.678       118.306       -5.400       -5.590       92.931        118.364
  2   73        -5.566       93.240       118.106       -5.200       -5.130       93.218        118.092
  2   74        -6.007       92.690       118.070       -5.200       -5.672       92.900        118.206
  2   75        -5.681       93.340       118.562       -5.200       -5.219       93.329        118.477
  2   76        -5.140       92.968       118.715       -4.800       -4.701       92.896        118.634
  2   77        -5.125       92.420       118.481       -4.900       -5.070       92.200        118.095
  2   78        -5.506       93.237       118.185       -5.100       -5.094       93.279        118.092
  2   79        -5.918       93.189       118.575       -5.200       -5.493       93.222        118.580
  2   80        -5.549       93.609       118.654       -4.800       -5.119       93.566        118.636
  2   81        -5.196       93.468       118.663       -4.900       -5.556       93.439        118.425
  2   82        -4.509       92.181       118.492       -5.000       -4.443       91.974        118.112
  2   83        -5.870       93.076       118.052       -5.400       -6.162       93.371        118.121
  2   84        -4.634       91.790       118.376       -5.900       -5.132       91.899        118.476
  2   85        -4.752       93.202       118.080       -5.300       -4.440       93.349        118.385
  2   86        -3.602       91.600       117.865       -5.000       -3.808       91.994        118.022
  2   87        -5.326       92.784       118.133       -5.300       -4.903       92.734        118.126
  2   88        -2.820       92.084       117.804       -4.900       -3.158       92.412        117.913
  2   89        -5.387       92.612       117.758       -5.500       -4.961       92.436        117.627
  2   90        -5.272       93.164       118.286       -5.100       -4.817       93.177        118.154
  2   91        -4.441       91.553       118.085       -4.900       -4.073       91.326        118.005
  2   92        -3.689       91.979       118.102       -5.200       -3.942       92.305        118.331
  2   93        -5.477       92.700       118.412       -5.400       -5.061       92.640        118.332
  2   94        -4.608       92.602       118.702       -4.800       -4.580       92.405        118.316
  2   95        -5.795       93.074       118.617       -5.400       -5.376       93.011        118.567
  2   96        -4.853       92.714       118.531       -4.900       -4.777       92.489        118.200
  2   97        -5.817       92.935       118.203       -5.400       -5.390       92.861        118.123
  2   98        -2.251       90.265       117.731       -5.100       -2.175       90.679        117.856
  2   99        -2.519       90.263       118.039       -4.800       -2.330       90.662        118.035
  2   100        -5.624       92.698       118.788       -5.100       -5.547       92.334        118.551
  2   101        -5.073       92.850       118.327       -5.000       -5.359       93.155        118.389
  2   102        -3.870       92.767       118.332       -4.700       -3.878       92.501        117.930
  2   103        -5.748       93.133       118.514       -5.100       -5.323       93.115        118.440
  2   104        -5.262       92.920       118.249       -5.100       -5.510       93.249        118.364
  2   105        -4.036       91.291       117.992       -5.000       -4.506       91.327        118.159
  2   106        -6.175       93.180       118.140       -5.100       -6.556       93.395        118.178
  2   107        -4.763       93.579       118.353       -4.700       -5.151       93.578        118.165
  2   108        -5.482       92.369       117.777       -5.700       -5.075       92.226        117.658
  2   109        -5.885       93.085       118.387       -5.300       -6.120       93.447        118.330
  2   110        -5.083       91.870       118.383       -5.400       -5.326       92.225        118.424
  2   111        -4.901       93.917       118.643       -4.300       -5.286       93.822        118.525
  2   112        -5.361       92.546       118.111       -5.500       -5.712       92.760        118.214
  2   113        -5.316       91.659       118.091       -5.400       -4.893       91.509        117.955
  2   114        -5.790       92.952       118.156       -5.400       -5.375       92.871        118.132
  2   115        -3.961       91.600       118.021       -4.800       -4.056       91.988        118.239
  2   116        -3.849       92.071       117.732       -4.900       -4.033       92.429        117.942
  2   117        -5.652       93.463       119.138       -4.800       -5.451       93.271        118.809
  2   118        -5.398       93.338       118.277       -4.900       -4.973       93.321        118.293
  2   119        -4.411       92.067       118.022       -5.100       -4.617       92.444        118.190
  2   120        -5.583       93.421       118.399       -5.300       -5.932       93.683        118.477
  2   121        -5.631       93.211       118.585       -4.800       -5.196       93.149        118.568
  2   122        -6.044       93.314       118.299       -5.500       -5.623       93.345        118.351
  2   123        -5.592       92.665       118.230       -5.300       -5.183       92.770        118.110
  2   124        -5.930       93.079       118.320       -5.500       -5.506       93.132        118.279
  2   125        -3.195       91.549       117.736       -5.300       -3.352       91.899        118.012
  2   126        -3.895       91.425       118.330       -4.900       -4.219       91.752        118.450
  2   127        -5.272       92.625       118.325       -5.000       -5.575       92.924        118.364


  3   1        -4.872       91.874       118.373       -5.300       -4.845       91.577        118.035
  3   2        -5.720       91.828       118.586       -5.400       -5.641       91.555        118.245
  3   3         2.810       90.901       117.965       -4.300        3.028       90.599        117.727
  3   4        -4.379       93.005       118.836       -4.900       -3.958       92.888        118.718
  3   5         3.345       90.514       117.619       -4.400        3.321       90.892        117.845
  3   6         3.264       90.009       117.543       -4.300        3.210       90.406        117.739
  3   7        -4.296       91.777       117.799       -5.600       -4.644       91.931        117.998
  3   8        -4.520       92.124       118.396       -5.800       -4.471       91.816        118.070
  3   9        -4.210       90.835       118.380       -4.800       -4.462       91.138        118.650
  3   10        -5.662       92.571       117.958       -5.400       -5.925       92.897        118.062
  3   11        -5.128       92.512       118.429       -5.600       -4.711       92.478        118.277
  3   12        -2.550       91.377       117.941       -4.800       -2.833       91.567        118.276
  3   13        -4.894       91.404       118.411       -5.700       -4.541       91.343        118.200
  3   14        -3.399       90.889       117.679       -5.300       -3.507       91.277        117.933
  3   15        -3.691       91.484       118.144       -5.600       -3.915       91.780        118.373
  3   16        -5.708       91.846       118.622       -5.400       -5.249       91.817        118.485
  3   17        -4.137       90.957       118.943       -5.400       -3.737       90.887        118.830
  3   18        -4.406       91.937       118.331       -5.400       -4.725       92.194        118.582
  3   19        -3.337       91.437       117.999       -5.200       -3.621       91.746        118.196
  3   20        -6.119       92.155       118.446       -5.300       -5.981       91.856        118.149
  3   21        -4.787       91.959       119.116       -4.700       -4.391       91.853        119.001
  3   22        -5.887       92.164       118.227       -5.600       -6.310       92.248        118.096
  3   23         1.977       90.819       117.185       -4.800        1.642       90.526        117.011
  3   24        -3.473       91.813       117.808       -5.400       -3.794       92.099        118.001
  3   25        -4.137       92.252       117.909       -5.700       -4.513       92.472        118.100
  3   26        -3.176       91.160       117.574       -5.200       -3.389       91.533        117.737
  3   27        -3.628       90.120       117.747       -5.300       -3.811       90.493        117.977
  3   28        -4.560       91.077       117.908       -5.500       -4.760       91.497        118.058
  3   29        -6.370       92.555       117.733       -6.000       -6.054       92.274        117.538
  3   30        -4.932       92.321       117.848       -5.500       -4.549       92.299        117.693
  3   31        -6.471       92.441       118.398       -5.900       -6.639       92.873        118.421
  3   32        -5.550       91.755       118.299       -5.000       -5.165       91.587        118.232
  3   33        -5.362       92.171       117.935       -5.600       -4.944       92.098        117.885
  3   34        -5.788       92.268       117.505       -5.700       -5.958       92.174        117.129
  3   35        -4.458       91.147       117.550       -5.800       -4.693       91.500        117.738
  3   36        -4.501       91.372       117.756       -5.800       -4.749       91.658        117.959
  3   37        -5.782       92.427       118.569       -5.600       -5.481       92.698        118.675
  3   38        -5.502       92.240       118.024       -5.800       -5.089       92.169        117.914
  3   39        -3.367       90.479       117.860       -5.500       -3.688       90.802        117.981
  3   40        -5.304       91.769       117.586       -5.600       -4.908       91.628        117.485
  3   41        -4.683       91.512       118.109       -5.500       -4.603       91.294        117.688
  3   42        -5.496       92.489       118.323       -5.600       -5.417       92.118        118.094
  3   43        -5.861       92.563       117.669       -5.300       -5.451       92.464        117.615
  3   44        -4.623       92.655       117.460       -5.400       -4.518       92.317        117.143
  3   45        -4.518       92.548       117.448       -5.700       -4.819       92.920        117.526
  3   46        -4.343       91.930       117.811       -5.400       -4.551       92.313        117.950
  3   47        -4.692       91.422       117.252       -5.900       -4.652       91.784        117.463
  3   48        -5.138       92.146       117.736       -5.000       -4.732       91.925        117.665
  3   49        -5.034       92.278       117.076       -5.500       -5.439       92.496        116.830
  3   50        -5.449       92.710       117.213       -5.400       -5.714       92.576        116.864
  3   51        -4.609       92.304       117.444       -5.300       -4.514       91.972        117.116
  3   52        -5.075       92.859       117.776       -5.700       -5.466       93.139        117.829
  3   53        -6.319       92.871       117.963       -5.500       -6.230       92.492        117.750
  3   54        -5.126       92.935       117.756       -5.200       -5.382       93.319        117.771
  3   55        -4.714       92.950       117.847       -5.600       -4.992       93.247        117.999
  3   56        -5.111       92.288       118.246       -5.200       -5.403       92.654        118.282
  3   57        -4.624       92.522       117.870       -5.800       -4.886       92.806        118.068
  3   58        -5.563       92.403       117.887       -5.400       -5.846       92.706        117.845
  3   59        -5.424       92.448       117.489       -5.200       -5.578       92.842        117.481
  3   60        -4.826       91.897       117.670       -5.100       -4.390       91.692        117.626
  3   61        -5.638       92.706       117.775       -5.600       -5.240       92.832        117.730
  3   62        -6.200       93.196       117.944       -5.500       -5.759       93.275        117.897
  3   63        -4.882       92.430       117.720       -5.600       -5.112       92.794        117.778
  3   64        -6.308       92.777       117.679       -5.800       -6.209       92.399        117.473
  3   65        -5.888       92.270       118.366       -5.400       -5.466       92.314        118.380
  3   66         1.785       90.011       117.068       -4.600        1.931       90.279        117.343
  3   67        -5.336       93.233       117.397       -5.400       -5.691       93.459        117.441
  3   68        -5.005       92.958       117.577       -5.500       -5.369       93.151        117.691
  3   69        -6.496       93.566       117.971       -5.400       -6.070       93.587        117.939
  3   70        -4.493       92.147       117.736       -5.700       -4.792       92.513        117.837
  3   71        -5.728       92.184       117.770       -5.500       -5.332       92.051        117.829
  3   72        -5.297       92.103       117.991       -5.600       -5.628       92.359        118.082
  3   73        -4.922       92.440       117.554       -5.500       -5.291       92.613        117.679
  3   74        -5.549       92.090       117.521       -5.900       -5.162       91.919        117.447
  3   75        -5.656       93.207       118.389       -5.300       -5.235       93.208        118.333
  3   76        -4.938       92.334       117.766       -5.500       -5.190       92.568        118.010
  3   77        -5.801       92.522       117.683       -5.600       -6.172       92.713        117.804
  3   78        -5.919       92.845       117.870       -5.600       -5.493       92.823        117.796
  3   79        -6.173       93.106       118.171       -5.600       -5.746       93.130        118.162
  3   80        -6.180       93.470       118.192       -5.400       -5.707       93.403        118.201
  3   81        -5.651       93.308       118.068       -5.500       -5.221       93.307        118.105
  3   82        -4.932       92.333       117.594       -5.600       -5.255       92.523        117.862
  3   83        -5.673       92.794       117.625       -5.600       -6.022       93.016        117.713
  3   84        -6.349       92.608       118.034       -5.700       -6.051       92.606        118.328
  3   85        -4.613       93.338       118.079       -5.500       -4.317       93.488        118.406
  3   86        -5.290       92.170       117.631       -5.300       -4.863       92.001        117.505
  3   87        -5.477       92.599       117.844       -5.500       -5.061       92.568        117.874
  3   88        -4.263       91.341       117.620       -5.300       -3.973       91.020        117.566
  3   89        -5.190       91.991       117.583       -5.400       -4.822       91.775        117.517
  3   90        -4.139       91.237       117.082       -5.500       -4.250       91.634        117.283
  3   91        -4.893       91.788       117.874       -5.200       -4.504       91.584        117.820
  3   92        -4.237       91.801       117.723       -5.600       -4.557       92.120        117.901
  3   93        -5.803       92.614       118.232       -5.300       -5.347       92.543        118.173
  3   94        -4.964       92.462       117.863       -5.100       -5.310       92.672        117.995
  3   95        -5.248       92.486       118.064       -5.500       -5.598       92.673        118.216
  3   96        -4.278       91.897       117.550       -5.300       -4.569       92.217        117.755
  3   97        -5.991       92.895       117.710       -5.500       -5.576       92.811        117.717
  3   98        -4.900       91.781       117.760       -5.200       -4.464       91.620        117.671
  3   99        -5.787       92.583       118.171       -5.500       -5.362       92.586        118.127
  3   100        -5.692       92.480       118.420       -5.500       -5.641       92.135        118.154
  3   101        -5.551       92.460       117.861       -5.400       -5.136       92.360        117.866
  3   102        -5.281       92.981       118.056       -5.300       -4.862       92.927        117.996
  3   103        -5.963       93.031       118.344       -5.300       -5.534       93.017        118.294
  3   104        -5.692       92.790       118.011       -5.500       -5.244       92.720        117.900
  3   105        -4.331       91.353       117.843       -5.000       -4.636       91.660        118.025
  3   106        -6.002       92.689       117.791       -5.600       -6.369       92.914        117.879
  3   107        -5.475       92.580       117.255       -5.200       -5.108       92.393        117.143
  3   108        -5.477       92.464       117.644       -5.800       -5.081       92.321        117.525
  3   109        -5.790       92.940       118.275       -5.400       -6.020       93.310        118.234
  3   110        -5.083       91.846       118.362       -5.400       -5.320       92.202        118.414
  3   111         0.927       91.622       117.718       -4.500        0.980       92.042        117.847
  3   112        -5.386       92.301       117.904       -5.700       -5.735       92.514        118.020
  3   113        -5.228       91.991       117.828       -5.600       -4.823       91.872        117.745
  3   114        -6.264       92.817       118.230       -5.600       -6.169       92.435        118.028
  3   115        -4.016       91.547       117.637       -5.500       -4.216       91.923        117.829
  3   116        -5.527       93.042       117.890       -5.300       -5.112       92.959        117.861
  3   117        -3.622       91.619       117.263       -5.400       -3.924       91.939        117.441
  3   118        -5.551       93.203       118.020       -5.400       -5.452       92.820        117.828
  3   119        -4.312       91.298       117.384       -5.500       -4.451       91.686        117.604
  3   120        -6.597       93.476       118.301       -5.600       -6.145       93.382        118.382
  3   121        -5.413       92.605       117.745       -5.700       -5.778       92.797        117.859
  3   122        -6.003       93.152       118.183       -5.700       -5.579       93.168        118.206
  3   123        -5.266       92.018       117.665       -5.700       -4.848       91.933        117.613
  3   124        -6.435       92.756       118.222       -5.800       -6.022       92.851        118.186
  3   125        -3.761       91.477       117.582       -5.600       -3.984       91.778        117.851
  3   126        -3.930       91.216       117.629       -5.200       -4.201       91.544        117.838
  3   127        -4.896       92.309       117.971       -5.300       -5.242       92.562        118.016


  4   1        -4.679       91.579       118.364       -4.900       -4.295       91.441        118.249
  4   2        -5.671       91.683       118.361       -5.200       -5.626       91.424        118.007
  4   3        -4.173       92.482       118.541       -4.300       -4.178       92.173        118.234
  4   4         2.730       89.553       116.412       -4.400        2.670       89.912        116.631
  4   5         4.090       90.480       117.105       -4.800        4.438       90.447        117.308
  4   6         4.193       90.246       117.147       -4.600        4.506       90.247        117.404
  4   7        -5.339       92.278       118.216       -5.900       -5.257       91.953        117.917
  4   8        -4.575       92.131       118.379       -5.700       -4.525       91.819        118.057
  4   9         0.059       89.179       116.984       -4.300        0.326       89.535        117.120
  4   10        -5.947       92.812       117.800       -5.400       -6.324       93.014        117.838
  4   11        -5.083       92.562       118.366       -5.400       -4.662       92.513        118.219
  4   12         1.029       90.766       117.194       -4.900        1.187       91.046        117.462
  4   13        -4.926       91.564       118.407       -5.200       -4.562       91.475        118.214
  4   14        -3.931       91.746       118.012       -5.200       -4.248       91.685        117.758
  4   15        -3.806       91.361       117.882       -5.500       -4.036       91.686        118.120
  4   16        -5.284       91.612       118.567       -5.300       -4.874       91.596        118.455
  4   17        -1.253       91.330       118.981       -4.900       -1.671       91.432        119.022
  4   18         0.884       90.744       117.760       -4.500        1.035       91.116        118.026
  4   19         0.917       90.729       117.363       -4.500        1.048       91.087        117.545
  4   20        -5.813       91.579       117.920       -5.200       -5.369       91.450        117.798
  4   21         1.450       89.159       116.112       -4.700        1.735       89.503        116.272
  4   22        -5.741       91.935       118.022       -5.500       -5.334       91.840        117.954
  4   23         1.750       89.132       115.902       -5.300        2.026       89.469        116.081
  4   24        -3.457       91.600       117.688       -5.200       -3.750       91.899        117.890
  4   25        -5.486       93.467       118.448       -5.500       -5.234       93.551        118.783
  4   26        -3.066       91.134       117.583       -5.200       -3.276       91.503        117.751
  4   27        -4.829       90.676       117.952       -5.500       -4.742       90.953        118.276
  4   28        -4.258       91.212       117.669       -5.500       -4.460       91.605        117.863
  4   29        -5.894       92.556       117.635       -5.900       -5.610       92.249        117.408
  4   30        -4.943       92.278       117.839       -5.500       -4.552       92.228        117.678
  4   31        -5.124       92.480       118.606       -5.200       -4.869       92.738        118.809
  4   32        -5.505       91.608       118.119       -5.100       -5.131       91.423        118.054
  4   33        -5.354       92.170       117.913       -5.600       -4.935       92.094        117.865
  4   34        -5.848       92.251       117.443       -5.900       -6.035       92.179        117.044
  4   35        -5.894       92.063       117.583       -5.600       -5.466       91.881        117.487
  4   36        -4.497       91.060       117.312       -5.900       -4.758       91.401        117.495
  4   37        -5.787       92.435       118.582       -5.600       -5.486       92.703        118.694
  4   38        -5.615       92.274       117.928       -6.000       -5.193       92.195        117.827
  4   39        -3.392       90.326       117.497       -5.400       -3.703       90.666        117.646
  4   40        -5.192       91.770       117.709       -5.400       -4.804       91.645        117.593
  4   41        -4.575       91.560       118.213       -5.400       -4.484       91.352        117.816
  4   42        -5.502       91.495       117.895       -5.200       -5.476       91.842        118.152
  4   43        -5.731       92.473       117.544       -5.400       -5.329       92.353        117.478
  4   44        -4.628       92.676       117.464       -5.400       -4.524       92.335        117.147
  4   45        -4.525       92.517       117.429       -5.700       -4.831       92.883        117.509
  4   46        -4.380       91.951       117.761       -5.500       -4.615       92.347        117.887
  4   47        -4.654       91.346       117.166       -6.000       -4.560       91.747        117.395
  4   48        -5.287       91.418       117.599       -5.400       -4.813       91.539        117.445
  4   49        -4.990       92.306       117.093       -5.500       -5.393       92.525        116.839
  4   50        -5.384       92.598       117.185       -5.500       -5.610       92.520        116.786
  4   51        -4.629       92.296       117.444       -5.300       -4.532       91.964        117.114
  4   52        -5.031       92.710       117.737       -5.700       -5.430       92.984        117.778
  4   53        -6.337       92.804       117.948       -5.500       -6.252       92.426        117.732
  4   54        -5.394       92.690       117.572       -5.500       -5.603       93.066        117.616
  4   55        -6.203       93.653       117.965       -5.400       -5.796       93.643        118.022
  4   56        -4.818       92.199       118.190       -4.900       -5.300       92.197        118.128
  4   57        -5.847       92.818       117.599       -5.600       -6.208       93.034        117.661
  4   58        -5.446       92.007       117.713       -5.600       -5.736       92.340        117.690
  4   59        -6.065       91.909       117.150       -5.400       -5.681       91.963        117.358
  4   60        -4.554       90.308       116.773       -5.400       -4.998       90.370        116.751
  4   61        -3.492       91.195       117.025       -5.500       -3.453       90.849        116.814
  4   62        -6.162       93.277       117.835       -5.600       -5.704       93.321        117.815
  4   63        -5.104       92.313       117.526       -5.900       -5.320       92.681        117.600
  4   64        -4.807       92.201       117.460       -5.700       -5.139       92.544        117.494
  4   65        -5.127       91.276       117.579       -5.500       -5.128       91.614        117.838
  4   66         1.693       89.934       116.746       -4.900        1.854       90.213        117.018
  4   67        -5.384       93.397       117.376       -5.300       -5.741       93.612        117.462
  4   68        -5.013       92.966       117.575       -5.500       -5.377       93.159        117.685
  4   69        -4.888       91.924       117.271       -5.600       -5.110       92.360        117.352
  4   70        -4.637       91.846       117.695       -5.700       -4.884       92.252        117.793
  4   71        -5.904       92.752       118.237       -5.500       -5.480       92.764        118.242
  4   72        -5.682       91.991       117.992       -5.500       -5.581       92.333        118.252
  4   73        -5.850       93.039       117.965       -5.600       -5.419       92.989        117.949
  4   74        -5.427       92.239       117.647       -5.900       -5.045       92.075        117.567
  4   75        -5.788       93.239       118.349       -5.300       -5.362       93.245        118.315
  4   76        -5.816       92.732       117.953       -5.200       -5.380       92.564        117.880
  4   77        -5.273       91.956       118.029       -5.600       -5.661       92.051        117.818
  4   78        -5.862       92.849       117.941       -5.700       -5.448       92.852        117.850
  4   79        -6.266       93.117       118.130       -5.400       -5.840       93.140        118.113
  4   80        -6.164       93.431       118.101       -5.400       -5.742       93.373        118.118
  4   81        -5.739       93.377       118.122       -5.600       -5.307       93.351        118.128
  4   82        -5.274       92.061       117.909       -5.700       -5.664       92.214        117.688
  4   83        -6.209       92.421       117.733       -5.800       -5.911       92.440        118.056
  4   84        -6.364       92.581       118.002       -5.700       -6.064       92.578        118.291
  4   85        -4.009       90.680       116.808       -5.500       -4.388       90.836        116.826
  4   86        -5.072       92.024       117.610       -5.400       -4.680       91.889        117.494
  4   87        -5.789       93.062       117.754       -5.600       -5.504       93.170        118.100
  4   88        -4.269       91.434       117.732       -5.300       -3.963       91.086        117.645
  4   89        -5.366       92.618       117.737       -5.500       -4.945       92.449        117.608
  4   90        -3.883       91.011       116.990       -5.500       -4.032       91.375        117.251
  4   91        -5.144       92.199       117.876       -5.200       -4.704       92.030        117.780
  4   92        -3.981       92.609       118.814       -5.100       -3.618       92.407        118.727
  4   93        -5.261       92.658       118.461       -5.100       -4.853       92.589        118.351
  4   94        -4.502       91.493       117.890       -5.100       -4.897       91.616        117.714
  4   95        -5.819       92.974       118.540       -5.500       -5.404       92.894        118.483
  4   96        -4.188       91.629       117.563       -5.300       -4.390       91.974        117.798
  4   97        -6.334       93.122       117.521       -5.900       -6.018       93.184        117.806
  4   98        -4.179       91.226       117.476       -5.200       -4.431       91.600        117.636
  4   99        -4.494       91.377       117.542       -5.500       -4.715       91.754        117.739
  4   100        -5.495       92.680       118.368       -5.300       -5.448       92.318        118.118
  4   101        -4.680       92.377       117.873       -5.500       -5.128       92.467        117.734
  4   102        -5.404       93.047       117.957       -5.400       -4.985       93.004        117.892
  4   103        -6.134       92.726       118.247       -5.200       -5.715       92.694        118.151
  4   104        -5.711       92.638       117.791       -5.600       -5.298       92.580        117.723
  4   105        -5.459       91.702       117.707       -5.600       -5.102       91.506        117.667
  4   106        -7.091       93.017       117.576       -5.200       -7.057       92.696        117.270
  4   107        -5.518       92.601       117.304       -5.200       -5.135       92.384        117.150
  4   108        -5.393       92.441       117.683       -5.800       -5.003       92.298        117.570
  4   109        -4.789       92.101       117.542       -5.800       -4.978       92.479        117.722
  4   110        -5.943       92.028       117.937       -5.600       -5.626       92.122        118.267
  4   111         2.914       90.166       116.701       -4.700        3.375       90.253        116.623
  4   112        -5.577       92.511       117.854       -5.700       -5.913       92.736        117.952
  4   113        -5.236       91.952       117.852       -5.600       -4.831       91.834        117.768
  4   114        -5.174       91.734       117.754       -5.700       -5.102       92.107        117.956
  4   115        -4.226       91.470       117.585       -5.400       -4.432       91.860        117.763
  4   116        -5.375       93.240       117.929       -5.300       -4.972       93.125        117.886
  4   117        -3.536       91.608       117.219       -5.300       -3.831       91.914        117.403
  4   118        -5.591       92.387       117.531       -5.400       -5.220       92.195        117.615
  4   119        -4.325       91.302       117.420       -5.500       -4.468       91.693        117.641
  4   120        -4.880       91.787       118.202       -5.300       -5.267       91.903        118.012
  4   121        -5.467       92.682       117.619       -5.400       -5.830       92.868        117.715
  4   122        -5.999       93.145       118.115       -5.700       -5.569       93.128        118.150
  4   123        -5.305       92.090       117.515       -5.800       -4.864       91.917        117.500
  4   124        -6.168       92.635       118.083       -5.700       -5.746       92.641        118.015
  4   125        -3.670       91.266       117.282       -5.900       -3.996       91.552        117.474
  4   126        -4.236       90.858       117.304       -5.600       -4.441       91.235        117.521
  4   127        -6.272       93.093       117.974       -5.400       -5.869       92.982        118.046


  5   1         3.094       88.774       115.867       -5.200        2.948       88.954        116.266
  5   2         3.327       89.268       116.239       -4.900        2.854       89.284        116.200
  5   3         5.081       88.371       116.269       -4.300        5.077       88.447        115.807
  5   4         3.601       89.878       116.224       -5.000        3.856       89.866        116.534
  5   5         4.012       90.457       117.083       -4.700        4.361       90.420        117.290
  5   6         4.157       90.273       117.156       -4.600        4.470       90.281        117.409
  5   7        -5.448       92.128       117.886       -5.700       -5.401       91.794        117.596
  5   8         4.573       90.167       116.423       -4.600        4.677       89.997        116.056
  5   9        -0.917       90.770       118.103       -4.500       -1.237       91.071        118.164
  5   10        -6.900       92.967       117.589       -5.200       -6.607       92.972        117.863
  5   11         3.721       89.344       115.892       -5.100        4.146       89.508        116.044
  5   12         2.532       90.738       117.122       -5.100        2.961       90.732        117.376
  5   13        -0.128       90.157       117.514       -4.500       -0.490       90.393        117.567
  5   14        -4.271       91.301       117.193       -5.100       -4.016       90.982        117.077
  5   15         1.880       88.609       115.675       -4.700        2.197       88.900        115.679
  5   16         4.370       88.876       115.611       -5.100        4.772       88.859        115.345
  5   17         0.753       90.548       117.823       -4.800        0.814       90.902        118.116
  5   18         2.874       89.133       116.024       -4.500        2.732       89.302        116.451
  5   19         4.018       89.428       115.638       -5.000        4.287       89.206        115.277
  5   20         3.356       89.782       116.507       -4.600        3.728       89.952        116.631
  5   21         1.466       89.197       115.948       -4.700        1.749       89.537        116.118
  5   22        -6.028       92.611       118.395       -5.400       -5.700       92.779        118.599
  5   23         1.695       88.981       115.503       -5.800        1.996       89.289        115.688
  5   24         1.472       88.781       115.823       -5.100        1.728       89.152        115.951
  5   25        -5.657       93.391       118.036       -5.300       -5.313       93.481        118.273
  5   26        -3.639       91.154       117.378       -5.000       -3.818       91.551        117.550
  5   27         4.515       88.493       115.588       -4.500        4.562       88.472        115.184
  5   28        -3.953       91.690       117.657       -5.000       -3.889       91.335        117.353
  5   29        -6.064       92.419       117.655       -5.300       -6.320       92.288        117.339
  5   30        -4.975       92.334       117.818       -5.400       -4.579       92.313        117.672
  5   31        -5.446       92.330       117.898       -4.600       -5.818       92.459        117.749
  5   32         1.585       88.571       116.145       -4.700        1.784       88.970        116.342
  5   33        -5.739       93.079       118.400       -5.000       -5.430       93.292        118.570
  5   34        -5.852       92.231       117.430       -5.700       -6.010       92.144        117.045
  5   35        -5.723       92.065       117.418       -5.500       -5.422       92.086        117.724
  5   36        -4.352       91.919       117.984       -5.500       -4.335       91.623        117.637
  5   37        -5.833       92.526       117.879       -5.200       -5.753       92.154        117.639
  5   38        -5.400       92.360       118.128       -5.000       -5.615       92.296        117.775
  5   39        -4.164       89.846       116.912       -4.900       -4.574       89.975        116.890
  5   40        -1.634       90.550       117.612       -4.600       -1.637       90.920        117.829
  5   41         1.175       89.405       116.684       -4.900        1.324       89.728        116.898
  5   42        -4.152       91.530       118.095       -5.200       -4.660       91.558        118.220
  5   43        -5.845       92.477       117.649       -5.500       -5.428       92.350        117.556
  5   44        -4.260       92.040       117.281       -5.500       -4.449       92.475        117.361
  5   45        -5.674       93.355       117.708       -5.600       -5.921       93.251        117.378
  5   46        -6.064       92.872       117.855       -5.500       -5.991       92.469        117.703
  5   47        -4.680       91.342       117.165       -6.000       -4.590       91.745        117.394
  5   48        -5.626       93.183       117.580       -4.900       -5.959       93.317        117.371
  5   49        -5.029       91.883       117.173       -5.000       -5.385       92.079        117.076
  5   50        -5.533       91.449       116.132       -5.900       -5.979       91.445        116.021
  5   51        -4.575       92.359       117.419       -5.400       -4.481       92.017        117.102
  5   52        -5.159       92.483       117.647       -4.900       -4.821       92.425        117.911
  5   53        -6.227       92.812       117.937       -5.400       -6.148       92.428        117.733
  5   54        -5.539       93.136       117.628       -5.200       -5.875       93.399        117.586
  5   55        -4.814       93.097       117.948       -5.600       -5.263       92.956        117.885
  5   56        -5.903       92.788       117.946       -5.300       -5.829       92.379        117.823
  5   57        -5.314       92.874       117.972       -4.800       -5.761       92.711        117.912
  5   58        -6.149       92.711       117.492       -5.300       -5.881       92.715        117.812
  5   59        -6.042       91.893       117.048       -5.500       -5.655       91.940        117.237
  5   60        -4.496       90.200       116.617       -5.700       -4.983       90.230        116.596
  5   61        -3.702       91.421       116.936       -5.500       -3.645       91.051        116.726
  5   62        -5.671       92.239       117.812       -5.300       -5.261       92.147        117.733
  5   63        -5.188       92.791       117.857       -5.100       -5.579       92.877        117.573
  5   64        -6.279       92.740       117.637       -5.700       -6.181       92.359        117.434
  5   65        -5.221       91.387       117.489       -5.400       -5.204       91.747        117.717
  5   66         1.767       89.095       116.305       -5.000        1.974       89.473        116.486
  5   67        -5.268       93.396       117.703       -5.100       -5.593       93.360        117.428
  5   68        -4.532       91.621       117.216       -5.500       -4.716       92.059        117.335
  5   69        -5.914       92.749       117.352       -5.300       -5.514       92.606        117.303
  5   70        -5.794       93.286       118.202       -5.200       -6.043       93.206        117.885
  5   71        -3.780       91.518       117.950       -4.900       -3.544       91.176        117.901
  5   72         2.961       89.210       116.750       -5.100        3.391       89.181        117.022
  5   73        -5.286       92.828       117.523       -5.200       -4.933       92.527        117.638
  5   74        -5.565       92.296       117.603       -5.900       -5.173       92.140        117.537
  5   75         0.423       90.286       117.536       -4.100        0.520       90.661        117.721
  5   76        -5.079       93.121       118.026       -5.000       -4.679       92.934        118.190
  5   77        -5.511       93.044       117.885       -4.900       -5.154       92.766        118.016
  5   78        -5.699       92.879       117.943       -5.300       -5.288       92.848        117.842
  5   79        -6.083       92.785       117.926       -5.200       -5.668       92.724        117.883
  5   80         4.185       89.152       116.057       -4.200        4.545       89.022        116.207
  5   81        -5.274       93.749       118.482       -4.600       -4.984       94.011        118.623
  5   82        -1.006       91.394       117.748       -4.900       -1.282       91.708        117.683
  5   83        -6.102       92.457       117.657       -5.700       -5.788       92.484        117.954
  5   84        -4.543       91.765       118.203       -5.700       -5.053       91.868        118.306
  5   85        -4.024       90.668       116.766       -5.500       -4.403       90.823        116.786
  5   86        -3.976       90.936       117.410       -5.400       -4.126       91.338        117.579
  5   87        -5.254       91.879       117.168       -5.500       -5.605       92.090        117.083
  5   88        -3.851       91.240       117.376       -5.100       -3.604       90.863        117.253
  5   89        -5.404       92.729       117.649       -5.400       -5.074       92.757        117.926
  5   90        -4.150       91.193       117.059       -5.500       -4.254       91.588        117.264
  5   91        -3.864       90.690       117.599       -4.800       -3.941       91.082        117.762
  5   92         0.314       90.468       117.952       -4.500        0.147       90.823        118.090
  5   93        -0.696       91.888       118.301       -4.800       -0.968       92.274        118.208
  5   94        -5.705       92.203       117.401       -4.600       -5.302       92.075        117.345
  5   95         5.413       89.798       116.694       -4.300        5.694       89.692        116.962
  5   96        -4.977       92.906       117.859       -4.800       -4.604       92.625        117.980
  5   97        -5.866       93.837       118.557       -5.100       -5.561       94.088        118.685
  5   98        -2.244       90.303       117.717       -5.100       -2.170       90.710        117.848
  5   99        -5.755       92.700       117.780       -5.300       -5.349       92.589        117.732
  5   100        -5.442       92.476       117.664       -5.100       -5.120       92.162        117.795
  5   101        -4.530       92.263       117.814       -5.300       -4.944       92.312        117.659
  5   102        -5.401       93.156       118.017       -5.300       -4.982       93.140        117.964
  5   103        -4.635       91.938       118.121       -4.900       -5.136       91.938        118.163
  5   104        -5.697       92.632       117.819       -5.600       -5.281       92.576        117.751
  5   105        -5.344       91.648       117.946       -4.900       -4.953       91.689        118.230
  5   106        -6.888       92.633       117.329       -5.200       -6.899       92.346        116.998
  5   107        -4.690       93.511       118.175       -4.700       -5.094       93.513        118.006
  5   108        -5.415       92.497       117.640       -5.800       -5.021       92.353        117.525
  5   109        -5.345       92.602       117.911       -5.100       -5.769       92.771        117.715
  5   110        -5.754       91.981       117.847       -5.400       -5.420       92.066        118.123
  5   111         3.722       89.506       115.770       -5.300        4.088       89.679        115.517
  5   112        -4.625       91.686       118.121       -5.400       -5.135       91.689        118.139
  5   113        -5.269       90.911       118.039       -5.100       -4.883       90.878        118.241
  5   114        -5.797       92.749       117.620       -5.700       -5.459       92.451        117.761
  5   115        -4.877       91.614       117.657       -5.000       -4.737       92.008        117.897
  5   116        -3.952       91.836       117.525       -4.800       -4.150       92.244        117.685
  5   117        -3.910       91.472       117.133       -5.000       -4.116       91.832        117.332
  5   118        -3.977       91.411       117.367       -5.100       -4.164       91.818        117.528
  5   119        -4.391       91.748       117.815       -5.800       -4.903       91.808        117.939
  5   120         3.665       88.180       116.021       -4.400        4.043       88.425        115.873
  5   121        -5.410       93.393       118.014       -5.100       -5.010       93.226        118.175
  5   122        -4.617       91.754       117.654       -5.800       -5.123       91.763        117.633
  5   123        -4.994       92.998       117.863       -5.300       -4.695       93.160        118.123
  5   124        -6.116       92.857       117.741       -5.000       -5.704       92.778        117.756
  5   125        -4.007       91.165       117.066       -5.400       -4.221       91.523        117.287
  5   126        -3.042       91.170       117.629       -4.900       -3.045       90.813        117.357
  5   127        -5.946       93.735       118.530       -5.000       -5.626       93.966        118.659


  6   1         3.120       88.800       115.862       -5.200        2.975       88.979        116.263
  6   2         3.594       89.352       116.161       -5.000        3.111       89.370        116.134
  6   3         4.911       88.113       115.436       -4.400        4.997       88.176        115.036
  6   4         3.626       89.854       116.188       -5.000        3.882       89.838        116.498
  6   5         4.541       88.425       115.299       -5.200        4.570       88.529        114.922
  6   6         4.265       88.702       115.712       -5.100        3.983       88.298        115.677
  6   7         3.903       88.369       115.103       -4.900        4.036       88.406        114.725
  6   8         4.599       89.976       116.211       -4.600        4.688       89.815        115.837
  6   9         3.641       89.037       115.334       -4.800        3.913       88.933        114.946
  6   10         3.199       88.834       115.823       -4.700        3.472       88.794        115.445
  6   11         3.792       89.418       115.944       -5.200        4.213       89.593        116.099
  6   12         4.019       88.775       115.577       -4.700        4.349       88.569        115.729
  6   13         3.515       88.751       115.171       -4.700        3.816       88.597        114.817
  6   14         2.329       89.562       115.602       -5.000        1.895       89.464        115.800
  6   15         4.258       89.495       115.398       -4.800        4.626       89.375        115.529
  6   16         4.759       89.573       115.925       -5.100        5.126       89.482        115.634
  6   17         4.461       88.664       115.470       -4.800        4.558       88.691        115.044
  6   18         4.018       89.180       115.422       -4.500        4.441       89.221        115.221
  6   19         3.960       89.273       115.417       -5.000        4.194       89.056        115.038
  6   20         4.470       88.515       115.241       -4.500        4.816       88.359        115.409
  6   21         3.608       88.778       114.911       -5.000        3.892       88.642        114.569
  6   22         3.030       88.216       114.988       -4.900        3.346       88.242        114.673
  6   23         1.780       88.910       115.364       -6.000        2.096       89.205        115.551
  6   24         3.534       88.865       115.410       -5.100        3.849       88.826        115.067
  6   25         4.717       88.824       115.365       -5.200        5.084       88.660        115.471
  6   26         1.732       87.589       114.663       -5.100        1.969       87.914        114.763
  6   27         4.031       88.856       115.237       -5.200        4.429       88.964        115.153
  6   28         1.982       87.414       114.887       -4.800        2.230       87.733        114.959
  6   29        -6.178       92.864       117.519       -5.200       -6.603       92.671        117.350
  6   30        -4.493       91.166       116.263       -5.100       -4.903       91.249        116.303
  6   31         1.599       88.668       116.353       -4.500        1.772       89.036        116.590
  6   32         3.724       88.456       115.222       -4.900        4.049       88.421        114.860
  6   33         3.623       88.353       115.156       -4.800        3.923       88.385        114.795
  6   34        -4.984       90.466       116.137       -5.500       -5.414       90.549        116.045
  6   35        -5.697       90.314       115.854       -5.100       -6.064       90.499        115.798
  6   36         0.724       90.011       116.847       -5.000        0.851       90.317        117.111
  6   37         3.698       89.220       115.780       -5.000        4.117       89.456        115.933
  6   38         3.366       88.592       114.866       -4.900        3.670       88.497        114.514
  6   39         2.833       89.015       116.182       -4.600        2.357       88.973        116.161
  6   40         3.210       88.576       115.479       -4.700        3.522       88.587        115.112
  6   41         3.314       88.495       115.602       -4.900        3.523       88.501        115.208
  6   42         3.008       88.932       115.802       -4.600        3.263       88.881        115.441
  6   43        -6.308       92.015       117.693       -5.100       -5.888       92.194        117.847
  6   44        -5.760       92.246       117.540       -4.800       -5.377       92.340        117.702
  6   45        -5.558       93.348       117.605       -5.500       -5.817       93.229        117.288
  6   46         4.011       89.849       116.521       -4.800        4.287       90.023        116.798
  6   47        -4.686       91.395       117.092       -5.900       -4.595       91.818        117.277
  6   48        -4.312       91.584       117.303       -4.800       -4.245       92.034        117.399
  6   49        -5.145       90.996       117.322       -5.000       -4.659       91.054        117.386
  6   50        -5.186       91.372       116.123       -5.900       -5.637       91.398        116.011
  6   51        -5.572       92.665       117.310       -5.100       -5.849       92.517        117.015
  6   52         3.006       88.784       115.798       -4.500        3.169       88.636        115.413
  6   53         2.627       88.631       116.036       -5.000        2.926       88.649        115.668
  6   54         3.206       89.194       115.713       -4.700        3.508       89.130        115.343
  6   55         3.146       88.573       115.175       -5.100        3.573       88.660        114.976
  6   56         1.679       87.408       114.915       -4.900        1.905       87.733        115.024
  6   57         2.688       89.153       116.108       -4.600        2.926       89.050        115.737
  6   58         3.707       88.286       115.079       -4.800        4.090       88.515        114.936
  6   59        -5.988       91.912       117.108       -5.400       -5.598       91.958        117.301
  6   60        -4.539       90.543       116.488       -5.400       -4.929       90.693        116.439
  6   61        -5.001       90.900       116.282       -4.800       -5.472       90.906        116.180
  6   62         2.591       88.064       114.863       -4.900        2.988       88.116        114.609
  6   63         3.389       87.878       116.067       -4.500        3.517       88.007        115.679
  6   64        -5.302       91.470       116.893       -5.000       -5.241       91.850        117.065
  6   65         3.207       87.154       115.976       -4.500        2.967       86.903        116.322
  6   66         1.756       89.099       116.323       -4.900        1.962       89.477        116.505
  6   67         4.509       89.249       115.596       -4.800        4.197       88.888        115.574
  6   68         1.224       89.372       116.981       -4.700        1.375       89.685        117.233
  6   69        -6.163       91.969       117.299       -5.000       -5.785       92.005        117.526
  6   70         3.746       88.503       115.431       -4.900        4.117       88.716        115.272
  6   71         2.919       88.486       115.932       -4.200        3.098       88.558        115.529
  6   72         3.879       88.251       116.399       -4.400        3.549       87.918        116.290
  6   73         3.369       89.634       116.030       -4.800        3.534       89.730        116.430
  6   74        -5.671       92.041       117.445       -5.400       -5.280       91.906        117.336
  6   75         4.227       87.896       114.933       -4.500        4.577       88.146        114.736
  6   76         3.060       89.849       116.015       -4.500        3.243       89.848        115.617
  6   77         4.638       88.516       116.022       -4.200        4.930       88.571        116.348
  6   78         5.325       88.650       115.807       -4.200        5.640       88.698        116.100
  6   79         3.673       89.070       115.551       -4.600        4.010       88.859        115.662
  6   80         2.678       88.752       115.875       -4.400        2.894       88.781        115.483
  6   81         3.185       88.741       115.701       -4.600        3.558       88.940        115.551
  6   82         3.557       89.233       115.393       -4.900        3.984       89.344        115.207
  6   83         4.441       88.267       115.328       -4.700        4.772       88.513        115.216
  6   84        -2.899       91.190       118.180       -4.300       -2.496       91.009        118.234
  6   85        -4.254       90.747       116.545       -5.700       -4.598       91.033        116.302
  6   86         3.337       88.280       115.320       -4.700        3.618       88.291        114.958
  6   87        -5.540       92.278       117.349       -5.000       -5.740       92.164        116.988
  6   88         2.071       87.723       114.668       -4.700        2.409       87.943        114.873
  6   89        -5.189       91.715       117.688       -4.700       -4.801       91.729        117.851
  6   90         4.169       88.627       115.144       -4.700        4.469       88.615        114.757
  6   91         3.392       88.769       115.442       -4.400        3.618       88.631        115.082
  6   92         3.924       88.983       115.202       -4.800        4.347       89.116        115.049
  6   93         5.057       87.993       115.599       -4.500        5.431       88.098        115.815
  6   94         3.225       89.097       115.335       -4.600        3.507       89.141        114.984
  6   95         3.064       88.720       115.069       -4.600        3.428       88.985        115.277
  6   96         2.422       87.977       115.149       -4.600        2.764       88.232        115.368
  6   97        -5.909       92.003       117.602       -4.700       -5.529       92.021        117.779
  6   98         4.540       87.343       115.483       -4.500        4.286       87.171        115.768
  6   99         2.243       87.665       114.811       -4.300        2.427       88.030        114.907
  6   100         4.852       88.186       115.305       -4.400        5.209       88.411        115.225
  6   101         3.624       89.197       115.626       -4.900        3.909       89.174        115.227
  6   102         3.691       88.589       115.253       -4.600        4.066       88.783        115.158
  6   103         4.541       88.140       115.211       -4.000        4.504       88.331        114.845
  6   104         3.862       87.938       115.257       -5.000        4.248       88.151        115.082
  6   105         3.304       89.540       115.783       -4.900        3.750       89.574        116.018
  6   106         3.708       88.527       115.353       -4.600        4.127       88.661        115.185
  6   107         3.396       87.823       114.875       -4.700        3.434       87.607        114.497
  6   108        -5.521       91.534       117.608       -5.100       -5.117       91.548        117.749
  6   109         3.919       87.536       115.029       -4.600        4.308       87.717        114.824
  6   110         3.135       89.107       115.462       -5.200        3.519       89.296        115.265
  6   111         3.343       89.642       115.284       -5.600        3.746       89.770        115.102
  6   112         3.787       88.111       114.994       -4.600        4.105       88.367        114.819
  6   113         2.980       88.872       115.961       -4.500        3.220       88.868        115.597
  6   114         3.531       88.717       115.745       -4.700        3.828       88.697        115.355
  6   115         3.108       88.458       115.978       -4.300        3.314       88.420        115.592
  6   116         3.882       89.632       115.389       -5.100        4.132       89.445        115.006
  6   117         2.996       88.973       115.004       -5.100        3.381       89.240        114.911
  6   118         1.679       88.058       114.904       -5.100        1.908       88.419        115.093
  6   119         0.971       89.310       116.564       -4.900        1.138       89.592        116.831
  6   120         3.698       88.386       116.544       -4.200        4.017       88.523        116.796
  6   121         3.958       88.424       115.086       -5.100        4.369       88.591        114.960
  6   122         3.536       88.903       115.445       -5.100        3.826       88.806        115.055
  6   123         4.232       89.251       115.189       -5.000        4.635       89.339        115.087
  6   124         3.049       89.375       115.719       -4.800        3.344       89.344        115.322
  6   125         2.414       89.244       115.225       -5.600        2.775       89.508        115.406
  6   126         3.901       88.918       115.205       -4.900        4.312       89.120        115.085
  6   127         4.768       88.488       115.276       -4.800        5.133       88.678        115.150


